Folder: SLAMD-FIB-Case-Study

Note: README.md
# SLAMD-FIB-Case-Study

This repository contains the underlying source data and results for the use case presented at the FIB conference 2022. 

## Title: ACCELERATING THE SEARCH FOR ALKALI ACTIVATED CEMENTS WITH SEQUENTIAL LEARNING 

Christoph Völker1), Sabine Kruschwitz1,2),  Benjami Moreno Torres1),  Ghezal Ahmad Zia1),  Rafia Firdous3), Dietmar Stephan3)
1) Bundesanstalt für Materialforschung und -prüfung, Unter den Eichen 87, 12205 Berlin, Germany
2) Technische Universität Berlin, Department of Civil Engineering, Non-destructive testing of building materials, Gustav-Meyer-Allee 25, 13355 Berlin, Germany
3) Technische Universität Berlin, Department of Civil Engineering, Building Materials and Construction Chemistry, Gustav-Meyer-Allee 25, 13355 Berlin, Germany


## Abstract

With 8% of man-made CO2 emissions, cement production is an important driver of the climate crisis. By using alkali-activated binders part of the energy-intensive clinker production process can be dispensed with. However, because numerous chemicals are involved in the manufacturing process here, the complexity of the materials increases by orders of magnitude. Finding a properly balanced cement formulation is like looking for a needle in a haystack. We have shown for the first time that artificial intelligence (AI)-based optimization of cement formulations can significantly accelerate research. 
The „Sequential Learning App for Materials Discovery“ (SLAMD) aims to accelerate practice transfer. With SLAMD, materials scientists have low-threshold access to AI through interactive and intuitive user interfaces. The value added by AI can be determined directly. For example, the CO2 emissions saved per ton of cement can be determined for each development cycle: the more efficient the AI optimization, the greater the savings. 
Our material database already includes more than 120,000 data points of alternative cements and is constantly being expanded with new parameters. We are currently driving the enrichment of the data with a life cycle analysis of the building materials. 
Based on a case study we show how intuitive access to AI can drive the adoption of techniques that make a real contribution to the development of resource-efficient and sustainable building materials of the future and make it easy to identify when classical experiments are more efficient.


## Description of the data

The data has been extracted from Xie et al. [1], who gave an extensive overview of alkali activated concrete mixes consisting of 1756 individual AAC mixes from 111 studies. The authors assess the influential features on the slump and mechanical properties of the mixes. They also propose an approach to assess the compressive strength of the hardened mixes according with the curing temperature.    The data contains the original reference, the concrete composition in terms of weight ratios of the precursors and detailed chemical information of the powders and activator substances. The activators co

File: DS_cube_100_1_Strength.csv
Idx_Sample,SiO2,Al2O3,Fe2O3,CaO,MgO,Na2O,K2O,SO3,TiO2,P2O5,SrO,Mn2O3,MnO,LOI,FA (kg/m3),GGBFS (kg/m3),SF (kg/m3),Coarse aggregate (kg/m3),Fine aggregate (kg/m3),Na2SiO3,NaOH,Na2SiO3 specific gravity,Total solution,Na2O (l),Sio2 (l),H2O,Na2O (Dry),Sio2 (Dry),Water,Total NaOH,Concentration (M) NaOH,Water,NaOH (Dry),Additional water,Superplasticizer,water -eff,Initial curing time (day),Initial curing temp (C),Final curing temp (C),Mixture CO2 (Na2SiO3 as solution),1-d Cubic compressive strength (MPa)
192,51.3,30.1,4.57,8.73,0,0,1.56,1.4,0.698,1.6,0,0,0,0,400,0,0,950,850,143,57,0,143,0.1426,0.2943,0.56,20.39,42.08,80.5233,57,12,29.64,27.36,48,28,174.9633,1,70,24,195.6294,45.01
195,51.3,30.1,4.57,8.73,0,0,1.56,1.4,0.698,1.6,0,0,0,0,400,0,0,950,850,143,57,0,143,0.1426,0.2943,0.56,20.39,42.08,80.5233,57,12,29.64,27.36,48,28,174.9633,4,70,24,282.2544,51.68
198,51.3,30.1,4.57,8.73,0,0,1.56,1.4,0.698,1.6,0,0,0,0,400,0,0,950,850,143,57,0,143,0.1426,0.2943,0.56,20.39,42.08,80.5233,57,12,29.64,27.36,48,28,174.9633,2,80,24,237.338,48.56
417,53.245,28.636,4.425,8.3555,0,0,1.683,1.4,0.665,1.52,0,0,0,0,400,0,20,950,850,143,58,0,143,0.1436,0.2943,0.56,20.53,42.08,80.3803,58,10,34.8,23.2,48,24,177.5803,2,70,24,209.298,48.22
481,57.3,27.13,8.06,0.03,2.13,0.73,0,1.06,0,0,0,0,0,1.6,428,0,0,1170,630,122,49,0,122,0.1684,0.3501,0.48,20.54,42.71,58.743,49,14,21.56,27.44,43,8.5,128.403,1,75,24,154.883,30
484,57.3,27.13,8.06,0.03,2.13,0.73,0,1.06,0,0,0,0,0,1.6,428,0,0,1170,630,122,49,0,122,0.1684,0.3501,0.48,20.54,42.71,58.743,49,14,21.56,27.44,43,8.5,128.403,1,75,24,154.883,28
487,57.3,27.13,8.06,0.03,2.13,0.73,0,1.06,0,0,0,0,0,1.6,428,0,0,1170,630,122,49,0,122,0.1684,0.3501,0.48,20.54,42.71,58.743,49,14,21.56,27.44,43,13,131.103,2,75,24,195.426,30
490,57.3,27.13,8.06,0.03,2.13,0.73,0,1.06,0,0,0,0,0,1.6,428,0,0,1170,630,122,49,0,122,0.1684,0.3501,0.48,20.54,42.71,58.743,49,14,21.56,27.44,43,8.5,128.403,2,75,24,186.966,45
493,57.3,27.13,8.06,0.03,2.13,0.73,0,1.06,0,0,0,0,0,1.6,428,0,0,1170,630,114,57,0,114,0.1684,0.3501,0.48,19.2,39.91,54.891,57,12,29.64,27.36,43,4.3,130.111,1,75,24,143.954,43
496,57.3,27.13,8.06,0.03,2.13,0.73,0,1.06,0,0,0,0,0,1.6,428,0,0,1170,630,114,57,0,114,0.1684,0.3501,0.48,19.2,39.91,54.891,57,14,25.08,31.92,43,4.3,125.551,1,75,24,152.686,46
738,61.3,29.4,3.27,1.21,0.75,0.73,1.2,0.003,0.01,0,0,0,0,0.45,350,0,0,1167,777,118.09,59.22,1.53,59.22,0.137,0.294,0.57,8.11,17.41,33.69618,118.09,14,51.9596,66.1304,0,0,85.65578,1,60,24,202.342,14.6
747,61.3,29.4,3.27,1.21,0.75,0.73,1.2,0.003,0.01,0,0,0,0,0.45,450,0,0,1051,700,150.52,75.48,1.53,59.22,0.137,0.294,0.57,8.11,17.41,33.69618,118.09,14,51.9596,66.1304,0,0,85.65578,1,60,24,213.49,15.9
1022,39.82,18.004,5.634,18.832,3.574,0.954,2.826,1.244,0.898,0.102,0.052,0.234,0,3.102,270,180,0,1030,670,106,87,0,106,0.128,0.255,0.62,13.57,27.03,65.402,87,10,52.2,34.8,65,0,182.602,0,25,24,123.402,14.6
1025,39.82,18.004,5.634,18.832,3.574,0.954,2.826,1.244,0.898,0.102,0.052,0.234,0,3.102,210,140,0,1155,750,82,68,0,82,0.128,0.255,0.62,10.5,20.91,50.594,68,10,40.8,27.2,60,0,151.394,0,25,24,98.872,4
1028,39.82,18.004,5.634,18.832,3.574,0.954,2.826,1.244,0.898,0.102,0.052,0.234,0,3.102,210,140,0,1120,730,83,67,0,83,0.128,0.255,0.62,10.62,21.17,51.211,67,10,40.2,26.8,80,0,171.411,0,25,24,98.202,3.4
1031,39.8292,18.01,5.63865,18.8101,3.57103,0.953915,2.82767,1.24354,0.898201,0.10209,0.0519841,0.233757,0,3.10262,227,151,0,1111,721,89,73,0,89,0.128,0.255,0.62,11.39,22.7,54.913,73,10,43.8,29.2,66,0,164.713,0,25,24,105.5116,8.7
1034,39.82,18.004,5.634,18.832,3.574,0.954,2.826,1.244,0.898,0.102,0.052,0.234,0,3.102,216,144,0,1145,742,85,69,0,85,0.128,0.255,0.62,10.88,21.68,52.445,69,10,41.4,27.6,59,0,152.845,0,25,24,100.8636,9.5
1037,39.7995,17.9907,5.62363,18.8809,3.58062,0.954189,2.82227,1.24501,0.897552,0.101799,0.0520354,0.234543,0,3.10062,203,136,0,1160,753,80,65,0,80,0.128,0.255,0.62,10.24,20.4,49.36,65,10,39,26,63,0,151.36,0,25,24,95.6564,9.3
1232,46.78,22.52,9.15,2.24,1.33,0.89,4.09,0.9,1.05,0.17,0,0,0.05,3.57,380,0,0,1111,721,89,73,0,89,0.128,0.255,0.62,11.39,22.7,54.913,73,7.5,51.1,21.9,0,0,106.013,28,70,65,892.7921,11.0445
1235,46.78,22.52,9.15,2.24,1.33,0.89,4.09,0.9,1.05,0.17,0,0,0.05,3.57,357,0,0,1145,742,84,69,0,84,0.128,0.255,0.62,10.75,21.42,51.828,69,7.5,48.3,20.7,0,0,100.128,28,70,65,888.8661,10.6697
1238,46.78,22.52,9.15,2.24,1.33,0.89,4.09,0.9,1.05,0.17,0,0,0.05,3.57,346,0,0,1160,753,81,67,0,81,0.128,0.255,0.62,10.37,20.66,49.977,67,7.5,46.9,20.1,0,0,96.877,28,70,65,886.7179,9.54465
1241,43.309,20.2678,7.39655,10.5145,2.44909,0.921917,3.45964,1.07155,0.974197,0.136088,0,0,0.141762,3.33661,309,77,0,1111,721,91,75,0,91,0.128,0.255,0.62,11.65,23.21,56.147,75,7.5,52.5,22.5,0,0,108.647,0,20,24,89.8811,6.57833
1244,43.2904,20.2558,7.38717,10.5588,2.45508,0.922088,3.45626,1.07247,0.973791,0.135907,0,0,0.142253,3.33536,291,73,0,1145,742,85,70,0,85,0.128,0.255,0.62,10.88,21.68,52.445,70,7.5,49,21,0,0,101.445,0,20,24,84.8326,6.44899
1247,43.3096,20.2683,7.39687,10.513,2.44889,0.921911,3.45975,1.07152,0.974211,0.136094,0,0,0.141745,3.33665,289,72,0,1160,753,85,70,0,85,0.128,0.255,0.62,10.88,21.68,52.445,70,7.5,49,21,0,0,101.445,0,20,24,84.8974,6.36507
1250,43.2896,20.2552,7.38674,10.5608,2.45536,0.922096,3.45611,1.07251,0.973772,0.135898,0,0,0.142275,3.3353,267,67,0,1160,753,79,64,0,79,0.128,0.255,0.62,10.11,20.15,48.743,64,7.5,44.8,19.2,0,0,93.543,0,20,24,78.9424,3.9687
1253,39.8292,18.01,5.63865,18.8101,3.57103,0.953915,2.82767,1.24354,0.898201,0.10209,0,0,0.233757,3.10262,227,151,0,1111,721,89,73,0,89,0.128,0.255,0.62,11.39,22.7,54.913,73,7.5,51.1,21.9,0,0,106.013,0,20,24,91.5321,8.01798
1256,39.82,18.004,5.634,18.832,3.574,0.954,2.826,1.244,0.898,0.102,0,0,0.234,3.102,216,144,0,1145,742,85,69,0,85,0.128,0.255,0.62,10.88,21.68,52.445,69,7.5,48.3,20.7,0,0,100.745,0,20,24,87.6501,8.70148
1259,39.7995,17.9907,5.62363,18.8809,3.58062,0.954189,2.82227,1.24501,0.897552,0.101799,0,0,0.234543,3.10062,203,136,0,1160,753,80,65,0,80,0.128,0.255,0.62,10.24,20.4,49.36,65,7.5,45.5,19.5,0,0,94.86,0,20,24,83.2089,9.02112
1262,34.6145,14.6264,3.00435,31.2413,5.25231,1.00187,1.88064,1.50128,0.784318,0.0511421,0,0,0.371616,2.75198,108,251,0,1111,721,84,69,0,84,0.128,0.255,0.62,10.75,21.42,51.828,69,7.5,48.3,20.7,0,0,100.128,0,20,24,92.1581,21.5984
1265,34.5948,14.6136,2.99439,31.2883,5.25866,1.00205,1.87706,1.50226,0.783887,0.0509496,0,0,0.372136,2.75065,101,236,0,1145,742,79,65,0,79,0.128,0.255,0.62,10.11,20.15,48.743,65,7.5,45.5,19.5,0,0,94.243,0,20,24,87.5161,18.8529
1268,34.6107,14.6239,3.00239,31.2506,5.25356,1.0019,1.87994,1.50147,0.784233,0.0511043,0,0,0.371718,2.75172,98,228,0,1160,753,77,63,0,77,0.128,0.255,0.62,9.86,19.64,47.509,63,7.5,44.1,18.9,0,0,91.609,0,20,24,85.3439,21.685
1387,50.7695,24.491,1.464,8.7425,9.235,0.6835,2.267,0.749,0.8495,0,0,0,0,0,340,60,0,1200,646,107,53,0,107,0.1536,0.3071,0.54,16.44,32.86,57.7051,53,10,31.8,21.2,0,4,91.9051,0,25,20,99.9788,9.45255
1390,48.299,22.562,1.278,13.835,8.92,0.607,1.964,0.938,0.839,0,0,0,0,0,280,120,0,1210,652,107,53,0,107,0.1536,0.3071,0.54,16.44,32.86,57.7051,53,10,31.8,21.2,0,4,91.9051,0,25,20,102.9356,17.1168
1393,49.1225,23.205,1.34,12.1375,9.025,0.6325,2.065,0.875,0.8425,0,0,0,0,0,300,100,0,1222,658,107,53,0,107,0.1536,0.3071,0.54,16.44,32.86,57.7051,53,12,27.56,25.44,0,4,87.6651,0,25,20,110.1816,21.4815
1396,49.1225,23.205,1.34,12.1375,9.025,0.6325,2.065,0.875,0.8425,0,0,0,0,0,300,100,0,1246,671,93,47,0,93,0.1536,0.3071,0.54,14.28,28.56,50.1549,47,10,28.2,18.8,0,4,80.7549,0,25,20,92.6036,17.2483
1398,49.1225,23.205,1.34,12.1375,9.025,0.6325,2.065,0.875,0.8425,0,0,0,0,0,300,100,0,1223,659,114,46,0,114,0.1536,0.3071,0.54,17.51,35.01,61.4802,46,10,27.6,18.4,0,4,91.4802,0,25,20,99.2296,19.2987

File: DS_cube_100_2_Strength.csv
Idx_Sample,SiO2,Al2O3,Fe2O3,CaO,MgO,Na2O,K2O,SO3,TiO2,P2O5,LOI,Cement (kg/m3),FA (kg/m3),GGBFS (kg/m3),Other SCM (kg/m3),Coarse aggregate (kg/m3),Fine aggregate (kg/m3),Na2SiO3,NaOH,NaOH specific gravity,Na2SiO3 specific gravity,Na2O (l),Sio2 (l),H2O,Na2O (Dry),Sio2 (Dry),Water,Concentration (M) NaOH,Water,NaOH (Dry),Additional water,Superplasticizer,water -eff,Initial curing time (day),Initial curing temp (C),Final curing temp (C),Mixture CO2 (Na2SiO3 as solution),7-d Cubic compressive strength (MPa)
809,60.2429,27.0048,2.16286,3.43333,1.09667,0.47619,0.952381,0.485714,0,0,2.49524,20,400,0,0,865,865,100,40,0,1.5,0.114,0.301,0.59,11.4,30.1,58.5,16,14.4,25.6,35,10.5,114.2,2,50,24,163.551,29.1667
812,62.3,28.1,2.1,0.5,1,0.5,1,0.4,0,0,2.5,0,350,0,0,920,920,86.4286,34.5714,0,1.5,0.114,0.301,0.59,9.85,26.02,50.5607,16,12.4457,22.1257,35,10.5,104.306,2,50,24,135.54,18.3529
815,62.3,28.1,2.1,0.5,1,0.5,1,0.4,0,0,2.5,0,400,0,0,875,875,100,40,0,1.5,0.114,0.301,0.59,11.4,30.1,58.5,16,14.4,25.6,35,10.5,114.2,2,50,24,146.847,32.2222
818,62.3,28.1,2.1,0.5,1,0.5,1,0.4,0,0,2.5,0,400,0,0,875,875,100,40,0,1.5,0.114,0.301,0.59,11.4,30.1,58.5,16,14.4,25.6,35,10.5,114.2,2,50,24,146.847,25.2778
821,62.3,28.1,2.1,0.5,1,0.5,1,0.4,0,0,2.5,0,400,0,0,875,875,100,40,0,1.5,0.114,0.301,0.59,11.4,30.1,58.5,16,14.4,25.6,35,10.5,114.2,2,28,24,118.614,9.83321
824,62.3,28.1,2.1,0.5,1,0.5,1,0.4,0,0,2.5,0,400,0,0,875,875,100,40,0,1.5,0.114,0.301,0.59,11.4,30.1,58.5,16,14.4,25.6,35,10.5,114.2,1,50,24,130.806,22.7857
827,62.3,28.1,2.1,0.5,1,0.5,1,0.4,0,0,2.5,0,400,0,0,880,880,100,40,0,1.5,0.114,0.301,0.59,11.4,30.1,58.5,16,14.4,25.6,30,10.5,109.2,2,50,24,146.895,30.625
830,62.3,28.1,2.1,0.5,1,0.5,1,0.4,0,0,2.5,0,400,0,0,880,880,100,40,0,1.5,0.114,0.301,0.59,11.4,30.1,58.5,16,14.4,25.6,35,7.5,112.4,2,50,24,141.255,27.377
833,62.3,28.1,2.1,0.5,1,0.5,1,0.4,0,0,2.5,0,400,0,0,875,875,100,40,0,1.5,0.114,0.301,0.59,11.4,30.1,58.5,18,11.2,28.8,35,10.5,111,2,50,24,152.975,18.5537
836,62.3,28.1,2.1,0.5,1,0.5,1,0.4,0,0,2.5,0,400,0,0,860,860,114,46,0,1.5,0.114,0.301,0.59,13,34.31,66.69,16,16.56,29.44,35,10.5,124.55,2,50,24,159.097,29.5161
839,62.3,28.1,2.1,0.5,1,0.5,1,0.4,0,0,2.5,0,400,0,0,875,875,93,47,0,1.5,0.114,0.301,0.59,10.6,27.99,54.405,16,16.92,30.08,35,47,134.525,2,50,24,221.527,23.0777
866,40.17,13.86,15.16,9.7,9.57,3.66,1.53,0.09,0,0,4.75,0,0,0,410,740,1110,103,41,2.13,1.53,0.11,0.29,0.6,11.33,29.87,61.8,14,18.04,22.96,101,12.3,188.22,2,40,24,132.3024,22.9
869,40.17,13.86,15.16,9.7,9.57,3.66,1.53,0.09,0,0,4.75,0,0,0,410,740,1110,132,53,2.13,1.53,0.11,0.29,0.6,14.52,38.28,79.2,14,23.32,29.68,83,12.3,192.9,1,80,24,171.653,27.8
979,29.945,10.0725,3.005,46.1775,2.035,0.2375,0.8025,2.2325,0.46,0.135,0,225,75,0,0,1193.02,795.35,29.46,11.786,0,0,0.1627,0.3464,0.49,4.79,10.2,14.4619,10,7.0716,4.7144,125.19,0,146.724,1,100,40,266.603,25.6934
982,57.9,31.11,5.07,1.29,0.97,0.09,1,0.05,0,0,0,0,300,0,0,1128.44,752.29,117.86,47.14,0,0,0.1627,0.3464,0.49,19.18,40.83,57.8575,10,28.284,18.856,50.76,0,136.901,1,100,40,136.891,28.4393
985,51.215,21.5975,4.455,16.3725,1.345,0.1325,0.6875,0.7775,1.38,0.405,0,75,225,0,0,1151.7,767.79,72.32,28.93,0,0,0.1627,0.3464,0.49,11.77,25.05,35.5019,10,17.358,11.572,89.11,0,141.97,1,100,40,169.434,25.3992
988,40.58,15.835,3.73,31.275,1.69,0.185,0.745,1.505,0.92,0.27,0,175,175,0,0,1098.54,732.36,68.75,27.5,0,0,0.1627,0.3464,0.49,11.19,23.82,33.7494,10,16.5,11,117.11,0,167.359,1,100,40,250.428,32.8523
991,29.945,10.0725,3.005,46.1775,2.035,0.2375,0.8025,2.2325,0.46,0.135,0,262.5,87.5,0,0,1124.337,749.56,28.13,11.25,0,0,0.1627,0.3464,0.49,4.58,9.74,13.809,10,6.75,4.5,151.32,0,171.879,1,100,40,296.714,25.6934
994,57.9,31.11,5.07,1.29,0.97,0.09,1,0.05,0,0,0,0,350,0,0,1051,700.67,112.5,45,0,0,0.1627,0.3464,0.49,18.3,38.97,55.22625,10,27,18,80.28,0,162.506,1,100,40,132.903,27.1644
1339,65.6,26.53,5.49,0.31,0.76,0.36,0.23,0.31,0,0,0.41,0,364,0,0,1311,562,117,46,0,0,0.1695,0.3506,0.4799,19.83,41.02,56.1483,8,31.28,14.72,0,7.28,91.7963,1,60,27,116.9,29.5457
1342,65.6,26.53,5.49,0.31,0.76,0.36,0.23,0.31,0,0,0.41,0,430,0,0,1243,533,138,55,0,0,0.1695,0.3506,0.4799,23.39,48.38,66.2262,10,33,22,0,8.6,104.3862,1,60,27,140.681,30.9104
1345,65.6,26.53,5.49,0.31,0.76,0.36,0.23,0.31,0,0,0.41,0,331,0,0,1344,576,106,42,0,0,0.1695,0.3506,0.4799,17.97,37.16,50.8694,10,25.2,16.8,0,6.62,80.0414,1,60,27,115.776,29.9312
1348,65.6,26.53,5.49,0.31,0.76,0.36,0.23,0.31,0,0,0.41,0,397,0,0,1277,547,128,50,0,0,0.1695,0.3506,0.4799,21.7,44.88,61.4272,12,26,24,0,7.94,92.1912,1,60,27,139.769,33.1071
1351,65.6,26.53,5.49,0.31,0.76,0.36,0.23,0.31,0,0,0.41,0,298,0,0,1377,590,96,158,0,0,0.1695,0.3506,0.4799,16.27,33.66,46.0704,12,82.16,75.84,0,5.96,131.8064,1,60,27,224.09,29.1515
1354,65.6,26.53,5.49,0.31,0.76,0.36,0.23,0.31,0,0,0.41,0,364,0,0,1311,562,117,47,0,0,0.1695,0.3506,0.4799,19.83,41.02,56.1483,14,20.68,26.32,0,7.28,81.1963,1,60,27,139.114,35.0562
1357,65.6,26.53,5.49,0.31,0.76,0.36,0.23,0.31,0,0,0.41,0,397,0,0,1277,547,128,51,0,0,0.1695,0.3506,0.4799,21.7,44.88,61.4272,8,34.68,16.32,0,7.94,100.8712,1,60,27,125.062,23.5624
1360,65.6,26.53,5.49,0.31,0.76,0.36,0.23,0.31,0,0,0.41,0,397,0,0,1277,547,128,51,0,0,0.1695,0.3506,0.4799,21.7,44.88,61.4272,8,34.68,16.32,0,7.94,100.8712,1,90,27,144.312,32.8504
1363,65.6,26.53,5.49,0.31,0.76,0.36,0.23,0.31,0,0,0.41,0,397,0,0,1277,547,128,51,0,0,0.1695,0.3506,0.4799,21.7,44.88,61.4272,10,30.6,20.4,0,7.94,96.7912,1,70,27,139.2914,28.0126
1366,65.6,26.53,5.49,0.31,0.76,0.36,0.23,0.31,0,0,0.41,0,397,0,0,1277,547,128,51,0,0,0.1695,0.3506,0.4799,21.7,44.88,61.4272,10,30.6,20.4,0,7.94,96.7912,1,100,27,158.5414,38.4736
1369,65.6,26.53,5.49,0.31,0.76,0.36,0.23,0.31,0,0,0.41,0,397,0,0,1277,547,128,51,0,0,0.1695,0.3506,0.4799,21.7,44.88,61.4272,12,26.52,24.48,0,7.94,92.7112,1,80,27,153.521,35.8491
1372,65.6,26.53,5.49,0.31,0.76,0.36,0.23,0.31,0,0,0.41,0,397,0,0,1277,547,128,51,0,0,0.1695,0.3506,0.4799,21.7,44.88,61.4272,14,22.44,28.56,0,7.94,88.6312,1,60,27,148.501,27.0631
1375,65.6,26.53,5.49,0.31,0.76,0.36,0.23,0.31,0,0,0.41,0,397,0,0,1277,547,128,51,0,0,0.1695,0.3506,0.4799,21.7,44.88,61.4272,14,22.44,28.56,0,7.94,88.6312,1,90,27,167.751,38.854
1723,50.76,27.32,4.64,5.4,3.72,0.8,4.85,2,1.16,0,0,0,280,0,0,1309,561,126,84,0,0,0.0883,0.2764,0.64,11.13,34.83,80.0478,12,43.68,40.32,0,0,123.7278,1,80,24,167.96,44.1
1730,36.74,10.78,0.42,43.34,3.21,0.18,0.17,0.53,0,0,0.6,0,0,400,0,894,894,101.82,58.18,0,1.5,0.13,0.32,0.55,13.24,32.58,56.001,10,34.908,23.272,30,12,128.109,1,30,24,136.372,41.13
1733,36.74,10.78,0.42,43.34,3.21,0.18,0.17,0.53,0,0,0.6,0,0,400,0,894,894,114.29,45.71,0,1.5,0.13,0.32,0.55,14.86,36.57,62.8595,10,27.426,18.284,30,12,127.4855,2,90,24,211.517,66.18
1736,36.74,10.78,0.42,43.34,3.21,0.18,0.17,0.53,0,0,0.6,0,0,400,0,894,894,114.29,45.71,0,1.5,0.13,0.32,0.55,14.86,36.57,62.8595,10,27.426,18.284,30,12,127.4855,3,60,24,195.476,47.16
1739,36.74,10.78,0.42,43.34,3.21,0.18,0.17,0.53,0,0,0.6,0,0,400,0,894,894,122.35,37.65,0,1.5,0.13,0.32,0.55,15.91,39.15,67.2925,12,19.578,18.072,30,12,124.0705,1,90,24,172.305,53.56
1742,36.74,10.78,0.42,43.34,3.21,0.18,0.17,0.53,0,0,0.6,0,0,400,0,894,894,101.82,58.18,0,1.5,0.13,0.32,0.55,13.24,32.58,56.001,12,30.2536,27.9264,30,12,123.4546,2,60,24,186.993,75.53
1745,36.74,10.78,0.42,43.34,3.21,0.18,0.17,0.53,0,0,0.6,0,0,400,0,894,894,114.29,45.71,0,1.5,0.13,0.32,0.55,14.86,36.57,62.8595,12,23.7692,21.9408,30,12,123.8287,3,30,24,144.728,68.93
1748,36.74,10.78,0.42,43.34,3.21,0.18,0.17,0.53,0,0,0.6,0,0,400,0,894,894,114.29,45.71,0,1.5,0.13,0.32,0.55,14.86,36.57,62.8595,14,20.1124,25.5976,30,12,120.1719,1,60,24,164.565,62.95
1751,36.74,10.78,0.42,43.34,3.21,0.18,0.17,0.53,0,0,0.6,0,0,400,0,894,894,122.35,37.65,0,1.5,0.13,0.32,0.55,15.91,39.15,67.2925,14,16.566,21.084,30,12,121.0585,2,30,24,142.781,61.08
1754,36.74,10.78,0.42,43.34,3.21,0.18,0.17,0.53,0,0,0.6,0,0,400,0,894,894,101.82,58.18,0,1.5,0.13,0.32,0.55,13.24,32.58,56.001,14,25.5992,32.5808,30,12,118.8002,3,90,24,276.115,52.52
1756,36.74,10.78,0.42,43.34,3.21,0.18,0.17,0.53,0,0,0.6,0,0,400,0,858,858,142.86,57.14,0,1.5,0.13,0.32,0.55,18.57,45.72,78.573,14,25.1416,31.9984,30,12,140.9146,3,60,24,231.678,37.83