Folder: SLAMD-FIB-Case-Study (part 3)

File: DS_cube_150_2_Strength.csv
Idx_Sample,SiO2,Al2O3,Fe2O3,CaO,MgO,Na2O,K2O,SO3,TiO2,LOI,FA (kg/m3),GGBFS (kg/m3),Coarse aggregate (kg/m3),Fine aggregate (kg/m3),Na2SiO3,NaOH,Na2O (l),Sio2 (l),H2O,Na2O (Dry),Sio2 (Dry),Water,Concentration (M) NaOH,Water,NaOH (Dry),Additional water,Superplasticizer,water -eff,Initial curing time (day),Initial curing temp (C),Initial curing rest time (day),Final curing temp (C),Mixture CO2 (Na2SiO3 as solution),28-d Cubic compressive strength (MPa)
669,64.11,18.58,4.32,1.21,0.24,0.21,1.02,0,0,0.64,383,0,1188,546,120,80,0.1426,0.2943,0.56,17.11,35.32,67.572,8,54.4,25.6,0,0,121.972,1,90,1,24,143.788,29.62
674,64.11,18.58,4.32,1.21,0.24,0.21,1.02,0,0,0.64,463.5,0,1154.06,530.7,120,80,0.1426,0.2943,0.56,17.11,35.32,67.572,12,41.6,38.4,0,0,109.172,1,90,1,24,168.385,35.98
1400,52.295,24.571,3.215,12.58,3.242,0.154,0,0.515,0,3.391,252,108,1090.8,774,128.571,51.4286,0.115,0.3,0.59,14.79,38.57,75.2143,8,34.9714,16.4571,0,14.4,118.826,0,25,1,30,120.448,36.1631
1405,52.295,24.571,3.215,12.58,3.242,0.154,0,0.515,0,3.391,294,126,966,810.6,165,66,0.115,0.3,0.59,18.98,49.5,96.525,8,44.88,21.12,0,16.8,151.485,0,25,1,30,147.684,26.2011
1410,52.295,24.571,3.215,12.58,3.242,0.154,0,0.515,0,3.391,315,135,972,760.5,192.857,77.1429,0.115,0.3,0.59,22.18,57.86,112.821,8,52.4571,24.6857,0,18,176.079,0,25,1,30,167.138,20.5882
1415,49.69,23.918,2.87,15.44,3.906,0.132,0,0.57,0,3.438,252,168,966,810.6,135,54,0.115,0.3,0.59,15.53,40.5,78.975,8,36.72,17.28,0,16.8,125.775,0,25,1,30,131.547,46.1453
1420,49.69,23.918,2.87,15.44,3.906,0.132,0,0.57,0,3.438,270,180,972,760.5,160.714,64.2857,0.115,0.3,0.59,18.48,48.21,94.0179,8,43.7143,20.5714,0,18,148.532,0,25,1,30,149.847,50.7843
1425,47.085,23.265,2.525,18.3,4.57,0.11,0,0.625,0,3.485,180,180,1090.8,774,141.429,56.5714,0.115,0.3,0.59,16.26,42.43,82.7357,8,38.4686,18.1029,0,14.4,129.844,0,25,1,30,131.684,51.6012
1430,47.085,23.265,2.525,18.3,4.57,0.11,0,0.625,0,3.485,210,210,966,810.6,180,72,0.115,0.3,0.59,20.7,54,105.3,8,48.96,23.04,0,16.8,164.34,0,25,1,30,160.793,47.514
1435,52.295,24.571,3.215,12.58,3.242,0.154,0,0.515,0,3.391,252,108,1090.8,774,115.714,46.2857,0.115,0.3,0.59,13.31,34.71,67.6929,8,31.4743,14.8114,0,14.4,107.807,1,60,1,30,135.126,41.4502
1440,52.295,24.571,3.215,12.58,3.242,0.154,0,0.515,0,3.391,294,126,966,810.6,150,60,0.115,0.3,0.59,17.25,45,87.75,8,40.8,19.2,0,16.8,138.63,1,60,1,30,161.066,43.6034
1445,52.295,24.571,3.215,12.58,3.242,0.154,0,0.515,0,3.391,315,135,972,760.5,176.786,70.7143,0.115,0.3,0.59,20.33,53.04,103.42,8,48.0857,22.6286,0,18,162.305,1,60,1,30,179.871,35.2288
1450,49.69,23.918,2.87,15.44,3.906,0.132,0,0.57,0,3.438,216,144,1090.8,774,154.286,61.7143,0.115,0.3,0.59,17.74,46.29,90.2571,8,41.9657,19.7486,0,14.4,140.863,1,60,1,30,160.195,51.1782
1455,49.69,23.918,2.87,15.44,3.906,0.132,0,0.57,0,3.438,270,180,972,760.5,144.643,57.8571,0.115,0.3,0.59,16.63,43.39,84.6161,8,39.3429,18.5143,0,18,134.759,1,60,1,30,162.581,56.732
1460,47.085,23.265,2.525,18.3,4.57,0.11,0,0.625,0,3.485,180,180,1090.8,774,128.571,51.4286,0.115,0.3,0.59,14.79,38.57,75.2143,8,34.9714,16.4571,0,14.4,118.826,1,60,1,30,146.363,65.3474
1465,47.085,23.265,2.525,18.3,4.57,0.11,0,0.625,0,3.485,210,210,966,810.6,165,66,0.115,0.3,0.59,18.98,49.5,96.525,8,44.88,21.12,0,16.8,151.485,1,60,1,30,174.175,52.0112
1470,47.085,23.265,2.525,18.3,4.57,0.11,0,0.625,0,3.485,225,225,972,760.5,192.857,77.1429,0.115,0.3,0.59,22.18,57.86,112.821,8,52.4571,24.6857,0,18,176.079,1,60,1,30,193.916,53.7582
1475,52.295,24.571,3.215,12.58,3.242,0.154,0,0.515,0,3.391,280,120,1043.05,772.955,128.571,51.4286,0.115,0.3,0.59,14.79,38.57,75.2143,8,34.9714,16.4571,0,16,119.786,0,25,1,30,123.958,35.76
1480,52.295,24.571,3.215,12.58,3.242,0.154,0,0.515,0,3.391,315,135,971.962,760.538,144.643,57.8571,0.115,0.3,0.59,16.63,43.39,84.6161,8,39.3429,18.5143,0,18,134.759,0,25,1,30,137.962,33.81
1485,49.69,23.918,2.87,15.44,3.906,0.132,0,0.57,0,3.438,240,160,1043.05,772.955,128.571,51.4286,0.115,0.3,0.59,14.79,38.57,75.2143,8,34.9714,16.4571,0,16,119.786,0,25,1,30,125.878,44.85
1490,49.69,23.918,2.87,15.44,3.906,0.132,0,0.57,0,3.438,270,180,971.962,760.538,144.643,57.8571,0.115,0.3,0.59,16.63,43.39,84.6161,8,39.3429,18.5143,0,18,134.759,0,25,1,30,140.122,45.88
1495,47.085,23.265,2.525,18.3,4.57,0.11,0,0.625,0,3.485,200,200,1043.05,772.955,128.571,51.4286,0.115,0.3,0.59,14.79,38.57,75.2143,8,34.9714,16.4571,0,16,119.786,0,25,1,30,127.798,56.36
1500,47.085,23.265,2.525,18.3,4.57,0.11,0,0.625,0,3.485,225,225,971.962,760.538,144.643,57.8571,0.115,0.3,0.59,16.63,43.39,84.6161,8,39.3429,18.5143,0,18,134.759,0,25,1,30,142.282,48.91
1505,52.295,24.571,3.215,12.58,3.242,0.154,0,0.515,0,3.391,280,120,1043.05,772.955,142.857,57.1429,0.115,0.3,0.59,16.43,42.86,83.5714,8,38.8571,18.2857,0,16,132.029,0,25,1,30,132.603,37.52
1510,52.295,24.571,3.215,12.58,3.242,0.154,0,0.515,0,3.391,315,135,971.962,760.538,160.714,64.2857,0.115,0.3,0.59,18.48,48.21,94.0179,8,43.7143,20.5714,0,18,148.532,0,25,1,30,147.687,38.96
1515,49.69,23.918,2.87,15.44,3.906,0.132,0,0.57,0,3.438,240,160,1043.05,772.955,142.857,57.1429,0.115,0.3,0.59,16.43,42.86,83.5714,8,38.8571,18.2857,0,16,132.029,0,25,1,30,134.523,49.59
1520,49.69,23.918,2.87,15.44,3.906,0.132,0,0.57,0,3.438,270,180,971.962,760.538,160.714,64.2857,0.115,0.3,0.59,18.48,48.21,94.0179,8,43.7143,20.5714,0,18,148.532,0,25,1,30,149.847,50.69
1525,47.085,23.265,2.525,18.3,4.57,0.11,0,0.625,0,3.485,200,200,1043.05,772.955,142.857,57.1429,0.115,0.3,0.59,16.43,42.86,83.5714,8,38.8571,18.2857,0,16,132.029,0,25,1,30,136.443,60.18
1530,47.085,23.265,2.525,18.3,4.57,0.11,0,0.625,0,3.485,225,225,971.962,760.538,160.714,64.2857,0.115,0.3,0.59,18.48,48.21,94.0179,8,43.7143,20.5714,0,18,148.532,0,25,1,30,152.007,58.53
1535,52.295,24.571,3.215,12.58,3.242,0.154,0,0.515,0,3.391,280,120,1043.05,772.955,157.143,62.8571,0.115,0.3,0.59,18.07,47.14,91.9286,8,42.7429,20.1143,0,16,144.271,0,25,1,30,141.247,27.77
1540,52.295,24.571,3.215,12.58,3.242,0.154,0,0.515,0,3.391,315,135,971.962,760.538,176.786,70.7143,0.115,0.3,0.59,20.33,53.04,103.42,8,48.0857,22.6286,0,18,162.305,0,25,1,30,157.413,25.71
1545,49.69,23.918,2.87,15.44,3.906,0.132,0,0.57,0,3.438,240,160,1043.05,772.955,157.143,62.8571,0.115,0.3,0.59,18.07,47.14,91.9286,8,42.7429,20.1143,0,16,144.271,0,25,1,30,143.167,45.38
1550,49.69,23.918,2.87,15.44,3.906,0.132,0,0.57,0,3.438,270,180,971.962,760.538,176.786,70.7143,0.115,0.3,0.59,20.33,53.04,103.42,8,48.0857,22.6286,0,18,162.305,0,25,1,30,159.573,41.85
1555,47.085,23.265,2.525,18.3,4.57,0.11,0,0.625,0,3.485,200,200,1043.05,772.955,157.143,62.8571,0.115,0.3,0.59,18.07,47.14,91.9286,8,42.7429,20.1143,0,16,144.271,0,25,1,30,145.087,48.14
1560,47.085,23.265,2.525,18.3,4.57,0.11,0,0.625,0,3.485,225,225,971.962,760.538,176.786,70.7143,0.115,0.3,0.59,20.33,53.04,103.42,8,48.0857,22.6286,0,18,162.305,0,25,1,30,161.733,48.45
1565,52.295,24.571,3.215,12.58,3.242,0.154,0,0.515,0,3.391,280,120,1043.05,772.955,171.429,68.5714,0.115,0.3,0.59,19.71,51.43,100.286,8,46.6286,21.9429,0,16,156.514,0,25,1,30,149.892,25.3
1570,52.295,24.571,3.215,12.58,3.242,0.154,0,0.515,0,3.391,315,135,971.962,760.538,192.857,77.1429,0.115,0.3,0.59,22.18,57.86,112.821,8,52.4571,24.6857,0,18,176.079,0,25,1,30,167.138,20.76
1575,49.69,23.918,2.87,15.44,3.906,0.132,0,0.57,0,3.438,240,160,1043.05,772.955,171.429,68.5714,0.115,0.3,0.59,19.71,51.43,100.286,8,46.6286,21.9429,0,16,156.514,0,25,1,30,151.812,46.42
1580,49.69,23.918,2.87,15.44,3.906,0.132,0,0.57,0,3.438,270,180,971.962,760.538,192.857,77.1429,0.115,0.3,0.59,22.18,57.86,112.821,8,52.4571,24.6857,0,18,176.079,0,25,1,30,169.298,45.68
1585,47.085,23.265,2.525,18.3,4.57,0.11,0,0.625,0,3.485,200,200,1043.05,772.955,171.429,68.5714,0.115,0.3,0.59,19.71,51.43,100.286,8,46.6286,21.9429,0,16,156.514,0,25,1,30,153.732,47.28
1590,47.085,23.265,2.525,18.3,4.57,0.11,0,0.625,0,3.485,225,225,971.962,760.538,192.857,77.1429,0.115,0.3,0.59,22.18,57.86,112.821,8,52.4571,24.6857,0,18,176.079,0,25,1,30,171.458,47.64
1595,47.085,23.265,2.525,18.3,4.57,0.11,0,0.625,0,3.485,185,185,1081,776.39,116.286,87.2143,0.115,0.3,0.59,13.37,34.89,68.0271,8,59.3057,27.9086,0,14.8,136.213,1,60,1,30,164.866,62.25
1607,43.59,19.185,1.8775,28.005,5.28,0.2325,0.8325,0.085,0.0325,0.23,120,360,547.7,803.1,186.7,53.4,0.147,0.294,0.559,27.44,54.89,104.3653,2,49.128,4.272,146.6,0,300.0933,0,24,1,24,101.077,9.53802
1612,43.59,19.185,1.8775,28.005,5.28,0.2325,0.8325,0.085,0.0325,0.23,120,360,543.7,787.2,180,60,0.147,0.294,0.559,26.46,52.92,100.62,4,50.4,9.6,149.3,0,300.32,0,24,1,24,108.772,23.8675
1617,43.59,19.185,1.8775,28.005,5.28,0.2325,0.8325,0.085,0.0325,0.23,120,360,539.4,790.9,171.4,68.5,0.147,0.294,0.559,25.2,50.39,95.8126,6,52.06,16.44,151.7,0,299.5726,0,24,1,24,118.772,36.9526
1622,43.59,19.185,1.8775,28.005,5.28,0.2325,0.8325,0.085,0.0325,0.23,120,360,534.4,783.5,160,80,0.147,0.294,0.559,23.52,47.04,89.44,8,54.4,25.6,154.2,0,298.04,0,24,1,24,132.15,49.8769
1627,43.59,19.185,1.8775,28.005,5.28,0.2325,0.8325,0.085,0.0325,0.23,120,360,535.7,785.6,196.4,43.6,0.147,0.294,0.559,28.87,57.74,109.7876,8,29.648,13.952,164.1,0,303.5356,0,24,1,24,122.964,39.1869
1632,43.59,19.185,1.8775,28.005,5.28,0.2325,0.8325,0.085,0.0325,0.23,120,360,532.7,781.1,192,48,0.147,0.294,0.559,28.22,56.45,107.328,10,28.8,19.2,166.3,0,302.428,0,24,1,24,131.394,52.7928
1637,43.59,19.185,1.8775,28.005,5.28,0.2325,0.8325,0.085,0.0325,0.23,120,360,529.4,776.2,186.7,53.4,0.147,0.294,0.559,27.44,54.89,104.3653,12,27.768,25.632,168.6,0,300.7333,0,24,1,24,141.764,56.205
1684,42.04,33.6,4,12.73,0,0,0,0,0,0,427,0,1276.8,547,106.75,42.7,0.147,0.294,0.559,15.69,31.38,59.67325,8,29.036,13.664,0,0,88.70925,1,80,0,24,110.35,38.17
1689,42.04,33.6,4,12.73,0,0,0,0,0,0,427,0,1276.8,547,106.75,42.7,0.147,0.294,0.559,15.69,31.38,59.67325,10,25.62,17.08,0,0,85.29325,1,100,0,24,129.725,43.5
1694,42.04,33.6,4,12.73,0,0,0,0,0,0,427,0,1276.8,547,106.75,42.7,0.147,0.294,0.559,15.69,31.38,59.67325,14,18.788,23.912,0,0,78.46125,1,40,0,24,104.309,42.57
1699,42.04,33.6,4,12.73,0,0,0,0,0,0,427,0,1276.8,547,106.75,42.7,0.147,0.294,0.559,15.69,31.38,59.67325,16,15.372,27.328,0,0,75.04525,1,60,0,24,123.684,41.93
1704,42.04,33.6,4,12.73,0,0,0,0,0,0,427,0,1276.8,547,122,48.8,0.147,0.294,0.559,17.93,35.87,68.198,14,21.472,27.328,0,0,89.67,1,80,0,24,142.007,46.16
1709,42.04,33.6,4,12.73,0,0,0,0,0,0,427,0,1276.8,547,99.6333,49.8167,0.147,0.294,0.559,14.65,29.29,55.695,14,21.9193,27.8973,0,0,77.6144,1,80,0,24,135.045,43.89
1712,42.04,33.6,4,12.73,0,0,0,0,0,0,427,0,1276.8,547,106.75,42.7,0.147,0.294,0.559,15.69,31.38,59.67325,14,18.788,23.912,0,0,78.46125,1,60,3,24,117.142,47.92

File: DS_cyl_100x200_1_Strength.csv
Idx_Sample,SiO2,Al2O3,Fe2O3,CaO,MgO,Na2O,K2O,SO3,TiO2,P2O5,LOI,FA (kg/m3),Coarse aggregate (kg/m3),Fine aggregate (kg/m3),Na2SiO3,NaOH,Total solution,Na2O (Dry),Sio2 (Dry),Concentration (M) NaOH,Water,NaOH (Dry),Additional water,Superplasticizer,water -eff,Initial curing time (day),Initial curing temp (C),Initial curing rest time (day),Mixture CO2 (Na2SiO3 as solution),7-d Cylindrical compressive strength (MPa)
1,53.36,26.49,10.86,1.34,0.77,0.37,0.8,1.7,1.47,1.43,1.39,476,1294,554,48,120,48,7.06,14.11,8,81.6,38.4,0,0,108.432,1,60,0,124.049,17
3,53.36,26.49,10.86,1.34,0.77,0.37,0.8,1.7,1.47,1.43,1.39,476,1294,554,120,48,120,17.64,35.28,8,32.64,15.36,0,0,99.72,0.166667,60,0,87.1319,24
5,53.36,26.49,10.86,1.34,0.77,0.37,0.8,1.7,1.47,1.43,1.39,476,1294,554,120,48,120,17.64,35.28,8,32.64,15.36,0,0,99.72,1,30,0,86.5971,20
7,53.36,26.49,10.86,1.34,0.77,0.37,0.8,1.7,1.47,1.43,1.39,476,1294,554,120,48,120,17.64,35.28,8,32.64,15.36,0,0,99.72,1,90,0,125.097,66
9,53.36,26.49,10.86,1.34,0.77,0.37,0.8,1.7,1.47,1.43,1.39,476,1294,554,120,48,120,17.64,35.28,14,21.12,26.88,0,0,88.2,2,30,0,111.866,49
11,53.36,26.49,10.86,1.34,0.77,0.37,0.8,1.7,1.47,1.43,1.39,476,1294,554,120,48,120,17.64,35.28,14,21.12,26.88,0,0,88.2,0.166667,90,0,112.401,30
13,53.36,26.49,10.86,1.34,0.77,0.37,0.8,1.7,1.47,1.43,1.39,476,1294,554,120,48,120,17.64,35.28,14,21.12,26.88,0,0,88.2,1,60,0,127.908,68
15,48,29,12.7,1.78,0.89,0.39,0.55,0.5,1.67,1.69,1.61,408,1294,554,103,51.5,103,15.14,30.28,14,22.66,28.84,16.5,0,96.737,1,60,0,125.269,42
17,48,29,12.7,1.78,0.89,0.39,0.55,0.5,1.67,1.69,1.61,408,1294,554,103,51.5,103,15.14,30.28,14,22.66,28.84,16.5,8.2,101.657,1,60,0,140.685,41
19,47.8,24.4,17.4,2.42,1.99,0.31,0.55,0.29,1.328,2,1.1,408,1201,647,103,41,103,15.14,30.28,12,21.32,19.68,14.3,6.1,96.857,1,60,0,119.196,40
21,47.8,24.4,17.4,2.42,1.99,0.31,0.55,0.29,1.328,2,1.1,408,1201,647,103,41,103,15.14,30.28,12,21.32,19.68,14.3,6.1,96.857,1,60,2,119.196,48
23,47.8,24.4,17.4,2.42,1.99,0.31,0.55,0.29,1.328,2,1.1,408,1201,647,103,41,103,15.14,30.28,12,21.32,19.68,14.3,6.1,96.857,1,60,4,119.196,49
25,47.8,24.4,17.4,2.42,1.99,0.31,0.55,0.29,1.328,2,1.1,408,1201,647,103,41,103,15.14,30.28,14,18.04,22.96,17.6,6.1,96.877,1,60,1,125.477,53
27,47.8,24.4,17.4,2.42,1.99,0.31,0.55,0.29,1.328,2,1.1,408,1201,647,103,41,103,15.14,30.28,14,18.04,22.96,17.6,6.1,96.877,1,60,3,125.477,57
29,47.8,24.4,17.4,2.42,1.99,0.31,0.55,0.29,1.328,2,1.1,408,1201,647,103,41,103,15.14,30.28,14,18.04,22.96,17.6,6.1,96.877,1,60,5,125.477,58
31,47.8,24.4,17.4,2.42,1.99,0.31,0.55,0.29,1.328,2,1.1,408,1201,647,103,41,103,15.14,30.28,12,21.32,19.68,14.3,6.1,96.857,1,60,1,119.196,53
33,47.8,24.4,17.4,2.42,1.99,0.31,0.55,0.29,1.328,2,1.1,408,1201,647,103,41,103,15.14,30.28,12,21.32,19.68,14.3,6.1,96.857,1,60,3,119.196,59
35,47.8,24.4,17.4,2.42,1.99,0.31,0.55,0.29,1.328,2,1.1,408,1201,647,103,41,103,15.14,30.28,12,21.32,19.68,14.3,6.1,96.857,1,60,5,119.196,59
37,47.8,24.4,17.4,2.42,1.99,0.31,0.55,0.29,1.328,2,1.1,408,1201,647,103,41,103,15.14,30.28,8,27.88,13.12,0,6.1,89.117,1,60,1,106.634,74
39,47.8,24.4,17.4,2.42,1.99,0.31,0.55,0.29,1.328,2,1.1,408,1201,647,103,41,103,15.14,30.28,8,27.88,13.12,0,6.1,89.117,1,60,3,106.634,76
41,47.8,24.4,17.4,2.42,1.99,0.31,0.55,0.29,1.328,2,1.1,408,1201,647,103,41,103,15.14,30.28,8,27.88,13.12,0,6.1,89.117,1,60,5,106.634,77
43,53.36,26.49,10.86,1.34,0.77,0.37,0.8,1.7,1.47,1.43,1.39,408,1294,554,103,41,103,15.14,30.28,14,18.04,22.96,0,8.2,80.537,1,45,0,119.8,55
45,53.36,26.49,10.86,1.34,0.77,0.37,0.8,1.7,1.47,1.43,1.39,408,1294,554,103,41,103,15.14,30.28,14,18.04,22.96,0,8.2,80.537,1,75,0,139.05,65
47,53.36,26.49,10.86,1.34,0.77,0.37,0.8,1.7,1.47,1.43,1.39,408,1294,554,103,41,103,15.14,30.28,14,18.04,22.96,10.7,8.2,91.237,1,30,0,110.175,35
49,53.36,26.49,10.86,1.34,0.77,0.37,0.8,1.7,1.47,1.43,1.39,408,1294,554,103,41,103,15.14,30.28,14,18.04,22.96,10.7,8.2,91.237,1,75,0,139.05,60
51,53.36,26.49,10.86,1.34,0.77,0.37,0.8,1.7,1.47,1.43,1.39,408,1294,554,103,41,103,15.14,30.28,14,18.04,22.96,21.3,8.2,101.837,1,30,0,110.175,32
53,53.36,26.49,10.86,1.34,0.77,0.37,0.8,1.7,1.47,1.43,1.39,408,1294,554,103,41,103,15.14,30.28,14,18.04,22.96,21.3,8.2,101.837,1,60,0,129.425,44
55,53.36,26.49,10.86,1.34,0.77,0.37,0.8,1.7,1.47,1.43,1.39,408,1294,554,103,41,103,15.14,30.28,14,18.04,22.96,21.3,8.2,101.837,1,90,0,148.675,44
57,47.8,24.4,17.4,2.42,1.99,0.31,0.55,0.29,1.328,2,1.1,408,1201,647,103,41,103,15.14,30.28,8,27.88,13.12,0,6.1,89.117,1,60,0,106.634,47
59,47.8,24.4,17.4,2.42,1.99,0.31,0.55,0.29,1.328,2,1.1,408,1201,647,103,41,103,15.14,30.28,10,24.6,16.4,7.5,6.1,93.337,1,60,0,112.915,45
61,47.8,24.4,17.4,2.42,1.99,0.31,0.55,0.29,1.328,2,1.1,408,1201,647,103,41,103,15.14,30.28,12,21.32,19.68,14.4,6.1,96.957,1,60,0,119.196,42
63,47.8,24.4,17.4,2.42,1.99,0.31,0.55,0.29,1.328,2,1.1,408,1201,647,103,41,103,15.14,30.28,14,18.04,22.96,20.7,6.1,99.977,1,60,0,125.477,40
65,47.8,24.4,17.4,2.42,1.99,0.31,0.55,0.29,1.328,2,1.1,408,1201,647,103,41,103,15.14,30.28,16,14.76,26.24,26.5,6.1,102.497,1,60,0,131.758,40
67,48,29,12.7,1.78,0.89,0.39,0.55,0.5,1.67,1.69,1.61,408,1294,647,103,41,103,15.14,30.28,14,18.04,22.96,16.5,6.1,95.777,1,60,0,125.924,56
69,47.8,24.4,17.4,2.42,1.99,0.31,0.55,0.29,1.328,2,1.1,408,1294,554,103,41,103,15.14,30.28,8,27.88,13.12,0,6.1,89.117,1,90,0,125.884,68
71,47.8,24.4,17.4,2.42,1.99,0.31,0.55,0.29,1.328,2,1.1,408,1294,554,103,41,103,15.14,30.28,8,27.88,13.12,0,6.1,89.117,1,90,0,125.884,44
82,47.8,24.4,17.4,2.42,1.99,0.31,0.55,0.29,1.328,2,1.1,408,1309,561,88,35,88,12.94,25.87,14,15.4,19.6,20.7,8.2,90.212,1,90,0,136.946,26
90,47.8,24.4,17.4,2.42,1.99,0.31,0.55,0.29,1.328,2,1.1,408,1309,561,103,51,103,15.14,30.28,14,22.44,28.56,20.7,6.1,104.377,1,60,0,136.307,37
100,47.8,24.4,17.4,2.42,1.99,0.31,0.55,0.29,1.328,2,1.1,476,1294,554,120,48,120,17.64,35.28,8,32.64,15.36,0,0,99.72,0.166667,60,0,87.1319,25
102,47.8,24.4,17.4,2.42,1.99,0.31,0.55,0.29,1.328,2,1.1,476,1294,554,120,48,120,17.64,35.28,8,32.64,15.36,0,0,99.72,0.5,60,0,94.618,41
104,47.8,24.4,17.4,2.42,1.99,0.31,0.55,0.29,1.328,2,1.1,476,1294,554,120,48,120,17.64,35.28,8,32.64,15.36,0,0,99.72,3,60,0,150.7638,77
106,47.8,24.4,17.4,2.42,1.99,0.31,0.55,0.29,1.328,2,1.1,476,1294,554,120,48,120,17.64,35.28,8,32.64,15.36,0,4.1,102.18,1,60,0,113.555,56
108,47.8,24.4,17.4,2.42,1.99,0.31,0.55,0.29,1.328,2,1.1,476,1294,554,120,48,120,17.64,35.28,8,32.64,15.36,0,8.2,104.64,1,60,0,121.263,57
110,47.8,24.4,17.4,2.42,1.99,0.31,0.55,0.29,1.328,2,1.1,476,1294,554,120,48,120,17.64,35.28,8,32.64,15.36,0,12.2,107.04,1,60,0,128.783,50
112,47.8,24.4,17.4,2.42,1.99,0.31,0.55,0.29,1.328,2,1.1,476,1294,554,120,48,120,17.64,35.28,8,32.64,15.36,0,4.1,102.18,1,60,0.0416667,113.555,56
114,47.8,24.4,17.4,2.42,1.99,0.31,0.55,0.29,1.328,2,1.1,476,1294,554,120,48,120,17.64,35.28,8,32.64,15.36,0,8.2,104.64,1,60,0.0416667,121.263,57
116,47.8,24.4,17.4,2.42,1.99,0.31,0.55,0.29,1.328,2,1.1,476,1294,554,120,48,120,17.64,35.28,8,32.64,15.36,0,12.2,107.04,1,60,0.0416667,128.783,50
118,47.8,24.4,17.4,2.42,1.99,0.31,0.55,0.29,1.328,2,1.1,476,1294,554,120,48,120,17.64,35.28,8,32.64,15.36,0,6.1,103.38,1,30,0,98.0651,35
120,47.8,24.4,17.4,2.42,1.99,0.31,0.55,0.29,1.328,2,1.1,476,1294,554,120,48,120,17.64,35.28,8,32.64,15.36,0,6.1,103.38,1,60,0,117.315,63
122,47.8,24.4,17.4,2.42,1.99,0.31,0.55,0.29,1.328,2,1.1,476,1294,554,120,48,120,17.64,35.28,8,32.64,15.36,0,6.1,103.38,1,90,0,136.565,63
124,47.8,24.4,17.4,2.42,1.99,0.31,0.55,0.29,1.328,2,1.1,476,1294,554,120,48,120,17.64,35.28,8,32.64,15.36,0,6.1,103.38,0.25,60,0,100.471,42
126,47.8,24.4,17.4,2.42,1.99,0.31,0.55,0.29,1.328,2,1.1,476,1294,554,120,48,120,17.64,35.28,8,32.64,15.36,0,6.1,103.38,0.25,90,0,105.284,51
128,47.8,24.4,17.4,2.42,1.99,0.31,0.55,0.29,1.328,2,1.1,476,1294,554,120,48,120,17.64,35.28,8,32.64,15.36,0,6.1,103.38,1,90,0.04,136.565,61